[
	{
		"rt": 586.3449999596924,
		"stimulus": "Welcome to the experiment. Press any key to begin.",
		"key_press": 32,
		"trial_type": "html-keyboard-response",
		"trial_index": 0,
		"time_elapsed": 594,
		"internal_node_id": "0.0-0.0"
	},
	{
		"rt": 2465.3200000175275,
		"stimulus": "<p>In this experiment, a circle will appear in the center of the screen.</p><p>If the circle is <strong>blue</strong>, press the letter F on the keyboard as fast as you can.</p><p>If the circle is <strong>orange</strong>, press the letter J as fast as you can.</p><div style='width: 700px;'><div style='float: left;'><img src='img/blue.png'></img><p class='small'><strong>Press the F key</strong></p></div><div class='float: right;'><img src='img/orange.png'></img><p class='small'><strong>Press the J key</strong></p></div></div><p>Press any key to begin.</p>",
		"key_press": 74,
		"trial_type": "html-keyboard-response",
		"trial_index": 1,
		"time_elapsed": 3062,
		"internal_node_id": "0.0-1.0"
	},
	{
		"rt": null,
		"stimulus": "<div style=\"font-size:60px;\">+</div>",
		"key_press": null,
		"trial_type": "html-keyboard-response",
		"trial_index": 2,
		"time_elapsed": 5566,
		"internal_node_id": "0.0-2.0-0.0"
	},
	{
		"rt": 2337.2550000203773,
		"stimulus": "img/orange.png",
		"key_press": 74,
		"trial_type": "image-keyboard-response",
		"trial_index": 3,
		"time_elapsed": 7906,
		"internal_node_id": "0.0-2.0-1.0"
	},
	{
		"rt": null,
		"stimulus": "<div style=\"font-size:60px;\">+</div>",
		"key_press": null,
		"trial_type": "html-keyboard-response",
		"trial_index": 4,
		"time_elapsed": 8162,
		"internal_node_id": "0.0-2.0-0.1"
	},
	{
		"rt": 532.3850000277162,
		"stimulus": "img/blue.png",
		"key_press": 74,
		"trial_type": "image-keyboard-response",
		"trial_index": 5,
		"time_elapsed": 8696,
		"internal_node_id": "0.0-2.0-1.1"
	},
	{
		"rt": null,
		"stimulus": "<div style=\"font-size:60px;\">+</div>",
		"key_press": null,
		"trial_type": "html-keyboard-response",
		"trial_index": 6,
		"time_elapsed": 9198,
		"internal_node_id": "0.0-2.0-0.2"
	},
	{
		"rt": 688.289999961853,
		"stimulus": "img/orange.png",
		"key_press": 74,
		"trial_type": "image-keyboard-response",
		"trial_index": 7,
		"time_elapsed": 9887,
		"internal_node_id": "0.0-2.0-1.2"
	},
	{
		"rt": null,
		"stimulus": "<div style=\"font-size:60px;\">+</div>",
		"key_press": null,
		"trial_type": "html-keyboard-response",
		"trial_index": 8,
		"time_elapsed": 11891,
		"internal_node_id": "0.0-2.0-0.3"
	},
	{
		"rt": 335.5600000359118,
		"stimulus": "img/blue.png",
		"key_press": 74,
		"trial_type": "image-keyboard-response",
		"trial_index": 9,
		"time_elapsed": 12228,
		"internal_node_id": "0.0-2.0-1.3"
	}
]
